{
  "resourceType": "Bundle",
  "type": "transaction",
  "entry": [
    {
      "resource": {
        "resourceType": "Library",
        "id": "library-fhir-model-definition",
        "url": "http://hl7.org/fhir/Library/library-fhir-model-definition",
        "identifier": [
          {
            "use": "official",
            "system": "http://example.org/fhir/cqi/ecqm/Library/Identifier",
            "value": "FHIR"
          }
        ],
        "version": "3.0.0",
        "name": "FHIR",
        "title": "FHIR Model Definition",
        "status": "active",
        "type": {
          "coding": [
            {
              "system": "http://hl7.org/fhir/library-type",
              "code": "model-definition"
            }
          ]
        },
        "date": "2016-07-08",
        "publisher": "Health Level 7 International - Clinical Quality Information Work Group",
        "description": "Model definition for the DSTU2 FHIR Model",
        "approvalDate": "2016-07-08",
        "lastReviewDate": "2016-07-08",
        "contact": [
          {
            "telecom": [
              {
                "system": "url",
                "value": "http://www.hl7.org/Special/committees/cqi/index.cfm"
              }
            ]
          }
        ],
        "topic": [
          {
            "text": "FHIR"
          }
        ],
        "content": [
          {
            "contentType": "application/xml",
            "url": "https://cqlrepository.org/fhir-modelinfo-3.0.0.xml"
          }
        ]
      },
      "request": {
        "method": "PUT",
        "url": "Library/library-fhir-model-definition"
      }
    },
    {
      "resource": {
        "resourceType": "Library",
        "id": "library-fhir-helpers",
        "meta": {
          "versionId": "3",
          "lastUpdated": "2019-03-12T00:39:19.259-06:00",
          "profile": [
            "http://hl7.org/fhir/us/cqfmeasures/StructureDefinition/library-cqfm"
          ]
        },
        "text": {
          "status": "generated",
          "div": "<div xmlns=\"http://www.w3.org/1999/xhtml\"><table class=\"grid dict\"><tr><th scope=\"row\"><b>Id: </b></th><td style=\"padding-left: 25px; padding-right: 25px;\">Library/library-fhir-helpers</td></tr><tr><th scope=\"row\"><b>Type: </b></th><td style=\"padding-right: 25px;\"><span><span><span style=\"padding-left: 25px;\"><b>system: </b><span>http://hl7.org/fhir/library-type</span><br/></span><span style=\"padding-left: 25px;\"><b>code: </b><span>logic-library</span></span></span></span></td></tr><tr style=\"vertical-align: top;\"><th rowspan=\"1\" scope=\"row\"><b>Identifier: </b></th><td style=\"padding-left: 25px; padding-right: 25px;\"><b>system: </b><span>http://example.org/fhir/cqi/ecqm/Library/Identifier</span><br/><b>value: </b><span>FHIRHelpers</span></td></tr><tr><th scope=\"row\"><b>Version: </b></th><td style=\"padding-left: 25px; padding-right: 25px;\">3.0.0</td></tr><tr><th scope=\"row\"><b>Title: </b></th><td style=\"padding-left: 25px; padding-right: 25px;\">FHIR Helpers</td></tr><tr><th scope=\"row\"><b>Status: </b></th><td style=\"padding-left: 25px; padding-right: 25px;\">active</td></tr><tr><th scope=\"row\"><b>Description: </b></th><td style=\"padding-left: 25px; padding-right: 25px;\">This library is used as an example in the FHIR Quality Measure Implementation Guide</td></tr>    <!-- Filter down to human readable content --><tr style=\"vertical-align: top;\"><th scope=\"row\"><b>Content: </b></th><td style=\"padding-left: 25px; padding-right: 25px;\"><b>type: </b><span>text/cql</span></td></tr><tr><td colspan=\"2\" style=\"padding-left: 25px; padding-right: 25px;\"><pre><code class=\"language-cql\">library FHIRHelpers version '3.0.0'\r\n\r\nusing FHIR version '3.0.0'\r\n\r\ndefine function ToInterval(period FHIR.Period):\r\n  if period is null then null \r\n    else Interval[period.\"start\".value, period.\"end\".value]\r\n\r\ndefine function ToQuantity(quantity FHIR.Quantity):\r\n  if quantity is null then null \r\n    else System.Quantity { value: quantity.value.value, unit: quantity.unit.value }\r\n\r\ndefine function ToInterval(range FHIR.Range):\r\n  if range is null then null \r\n    else Interval[ToQuantity(range.low), ToQuantity(range.high)]\r\n\r\ndefine function ToCode(coding FHIR.Coding):\r\n  if coding is null then null \r\n    else System.Code { code: coding.code.value, system: coding.system.value, version: coding.version.value, display: coding.display.value }\r\n\r\ndefine function ToConcept(concept FHIR.CodeableConcept):\r\n  if concept is null then null \r\n    else System.Concept { codes: concept.coding C\r\n    return ToCode(C), display: concept.text.value }\r\n\r\ndefine function ToString(value FHIR.uuid):\r\n  value.value\r\n\r\ndefine function ToString(value FHIR.TestScriptRequestMethodCode):\r\n  value.value\r\n\r\ndefine function ToString(value FHIR.ProvenanceEntityRole):\r\n  value.value\r\n\r\ndefine function ToString(value FHIR.UnitsOfTime):\r\n  value.value\r\n\r\ndefine function ToString(value FHIR.AddressType):\r\n  value.value\r\n\r\ndefine function ToString(value FHIR.AllergyIntoleranceCategory):\r\n  value.value\r\n\r\ndefine function ToString(value FHIR.SpecimenStatus):\r\n  value.value\r\n\r\ndefine function ToString(value FHIR.RestfulCapabilityMode):\r\n  value.value\r\n\r\ndefine function ToString(value FHIR.DetectedIssueSeverity):\r\n  value.value\r\n\r\ndefine function ToString(value FHIR.IssueSeverity):\r\n  value.value\r\n\r\ndefine function ToString(value FHIR.CareTeamStatus):\r\n  value.value\r\n\r\ndefine function ToString(value FHIR.DataElementStringency):\r\n  value.value\r\n\r\ndefine function ToString(value FHIR.VisionEyes):\r\n  value.value\r\n\r\ndefine function ToString(value FHIR.EncounterStatus):\r\n  value.value\r\n\r\ndefine function ToString(value FHIR.StructureDefinitionKind):\r\n  value.value\r\n\r\ndefine function ToString(value FHIR.PublicationStatus):\r\n  value.value\r\n\r\ndefine function ToString(value FHIR.ConsentDataMeaning):\r\n  value.value\r\n\r\ndefine function ToString(value FHIR.StructureMapSourceListMode):\r\n  value.value\r\n\r\ndefine function ToString(value FHIR.RequestStatus):\r\n  value.value\r\n\r\ndefine function ToString(value FHIR.QuestionnaireResponseStatus):\r\n  value.value\r\n\r\ndefine function ToString(value FHIR.SearchComparator):\r\n  value.value\r\n\r\ndefine function ToString(value FHIR.ChargeItemStatus):\r\n  value.value\r\n\r\ndefine function ToString(value FHIR.ActionParticipantType):\r\n  value.value\r\n\r\ndefine function ToString(value FHIR.AllergyIntoleranceType):\r\n  value.value\r\n\r\ndefine function ToString(value FHIR.DocumentRelationshipType):\r\n  value.value\r\n\r\ndefine function ToString(value FHIR.AllergyIntoleranceClinicalStatus):\r\n  value.value\r\n\r\ndefine function ToString(value FHIR.CarePlanActivityStatus):\r\n  value.value\r\n\r\ndefine function ToString(value FHIR.ActionList):\r\n  value.value\r\n\r\ndefine function ToString(value FHIR.ParticipationStatus):\r\n  value.value\r\n\r\ndefine function ToString(value FHIR.TestReportResult):\r\n  value.value\r\n\r\ndefine function ToString(value FHIR.ConceptMapGroupUnmappedMode):\r\n  value.value\r\n\r\ndefine function ToDateTime(value FHIR.instant):\r\n  value.value\r\n\r\ndefine function ToDateTime(value FHIR.dateTime):\r\n  value.value\r\n\r\ndefine function ToDate(value FHIR.date):\r\n  value.value\r\n\r\ndefine function ToString(value FHIR.DocumentMode):\r\n  value.value\r\n\r\ndefine function ToString(value FHIR.AssertionOperatorType):\r\n  value.value\r\n\r\ndefine function ToString(value FHIR.DaysOfWeek):\r\n  value.value\r\n\r\ndefine function ToString(value FHIR.IssueType):\r\n  value.value\r\n\r\ndefine function ToString(value FHIR.ContentType):\r\n  value.value\r\n\r\ndefine function ToString(value FHIR.StructureMapContextType):\r\n  value.value\r\n\r\ndefine function ToString(value FHIR.FamilyHistoryStatus):\r\n  value.value\r\n\r\ndefine function ToInteger(value FHIR.positiveInt):\r\n  value.value\r\n\r\ndefine function ToString(value FHIR.ClinicalImpressionStatus):\r\n  value.value\r\n\r\ndefine function ToString(value FHIR.AssertionResponseTypes):\r\n  value.value\r\n\r\ndefine function ToString(value FHIR.RequestIntent):\r\n  value.value\r\n\r\ndefine function ToString(value FHIR.NarrativeStatus):\r\n  value.value\r\n\r\ndefine function ToString(value FHIR.MeasmntPrinciple):\r\n  value.value\r\n\r\ndefine function ToString(value FHIR.ConsentExceptType):\r\n  value.value\r\n\r\ndefine function ToString(value FHIR.string):\r\n  value.value\r\n\r\ndefine function ToString(value FHIR.ActionRequiredBehavior):\r\n  value.value\r\n\r\ndefine function ToString(value FHIR.EndpointStatus):\r\n  value.value\r\n\r\ndefine function ToString(value FHIR.GuidePageKind):\r\n  value.value\r\n\r\ndefine function ToString(value FHIR.GuideDependencyType):\r\n  value.value\r\n\r\ndefine function ToString(value FHIR.ResourceVersionPolicy):\r\n  value.value\r\n\r\ndefine function ToString(value FHIR.MedicationRequestStatus):\r\n  value.value\r\n\r\ndefine function ToString(value FHIR.MedicationAdministrationStatus):\r\n  value.value\r\n\r\ndefine function ToString(value FHIR.ActionCardinalityBehavior):\r\n  value.value\r\n\r\ndefine function ToString(value FHIR.MedicationRequestIntent):\r\n  value.value\r\n\r\ndefine function ToString(value FHIR.NamingSystemIdentifierType):\r\n  value.value\r\n\r\ndefine function ToString(value FHIR.ImmunizationStatusCodes):\r\n  value.value\r\n\r\ndefine function ToString(value FHIR.AccountStatus):\r\n  value.value\r\n\r\ndefine function ToString(value FHIR.MedicationDispenseStatus):\r\n  value.value\r\n\r\ndefine function ToString(value FHIR.ConfidentialityClassification):\r\n  value.value\r\n\r\ndefine function ToString(value FHIR.IdentifierUse):\r\n  value.value\r\n\r\ndefine function ToString(value FHIR.DigitalMediaType):\r\n  value.value\r\n\r\ndefine function ToString(value FHIR.StructureMapTargetListMode):\r\n  value.value\r\n\r\ndefine function ToString(value FHIR.TestReportParticipantType):\r\n  value.value\r\n\r\ndefine function ToString(value FHIR.BindingStrength):\r\n  value.value\r\n\r\ndefine function ToString(value FHIR.RequestPriority):\r\n  value.value\r\n\r\ndefine function ToString(value FHIR.ParticipantRequired):\r\n  value.value\r\n\r\ndefine function ToString(value FHIR.DiscriminatorType):\r\n  value.value\r\n\r\ndefine function ToString(value FHIR.XPathUsageType):\r\n  value.value\r\n\r\ndefine function ToString(value FHIR.StructureMapInputMode):\r\n  value.value\r\n\r\ndefine function ToString(value FHIR.InstanceAvailability):\r\n  value.value\r\n\r\ndefine function ToString(value FHIR.id):\r\n  value.value\r\n\r\ndefine function ToString(value FHIR.LinkageType):\r\n  value.value\r\n\r\ndefine function ToString(value FHIR.ReferenceHandlingPolicy):\r\n  value.value\r\n\r\ndefine function ToString(value FHIR.MedicationStatus):\r\n  value.value\r\n\r\ndefine function ToString(value FHIR.FilterOperator):\r\n  value.value\r\n\r\ndefine function ToString(value FHIR.NamingSystemType):\r\n  value.value\r\n\r\ndefine function ToString(value FHIR.ResearchStudyStatus):\r\n  value.value\r\n\r\ndefine function ToString(value FHIR.ExtensionContext):\r\n  value.value\r\n\r\ndefine function ToString(value FHIR.FHIRDefinedType):\r\n  value.value\r\n\r\ndefine function ToString(value FHIR.AuditEventOutcome):\r\n  value.value\r\n\r\ndefine function ToString(value FHIR.ActionRelationshipType):\r\n  value.value\r\n\r\ndefine function ToString(value FHIR.ConstraintSeverity):\r\n  value.value\r\n\r\ndefine function ToString(value FHIR.EventCapabilityMode):\r\n  value.value\r\n\r\ndefine function ToString(value FHIR.ContractResourceStatusCodes):\r\n  value.value\r\n\r\ndefine function ToString(value FHIR.ResearchSubjectStatus):\r\n  value.value\r\n\r\ndefine function ToString(value FHIR.UDIEntryType):\r\n  value.value\r\n\r\ndefine function ToString(value FHIR.DeviceMetricCategory):\r\n  value.value\r\n\r\ndefine function ToString(value FHIR.TestReportActionResult):\r\n  value.value\r\n\r\ndefine function ToString(value FHIR.StructureMapTransform):\r\n  value.value\r\n\r\ndefine function ToString(value FHIR.ResponseType):\r\n  value.value\r\n\r\ndefine function ToDecimal(value FHIR.decimal):\r\n  value.value\r\n\r\ndefine function ToString(value FHIR.AggregationMode):\r\n  value.value\r\n\r\ndefine function ToString(value FHIR.CapabilityStatementKind):\r\n  value.value\r\n\r\ndefine function ToString(value FHIR.AllergyIntoleranceVerificationStatus):\r\n  value.value\r\n\r\ndefine function ToString(value FHIR.EventTiming):\r\n  value.value\r\n\r\ndefine function ToString(value FHIR.GoalStatus):\r\n  value.value\r\n\r\ndefine function ToString(value FHIR.SearchParamType):\r\n  value.value\r\n\r\ndefine function ToString(value FHIR.SystemRestfulInteraction):\r\n  value.value\r\n\r\ndefine function ToString(value FHIR.ActionGroupingBehavior):\r\n  value.value\r\n\r\ndefine function ToString(value FHIR.StructureMapModelMode):\r\n  value.value\r\n\r\ndefine function ToString(value FHIR.TaskStatus):\r\n  value.value\r\n\r\ndefine function ToString(value FHIR.AdverseEventCausality):\r\n  value.value\r\n\r\ndefine function ToString(value FHIR.SubscriptionChannelType):\r\n  value.value\r\n\r\ndefine function ToString(value FHIR.GraphCompartmentRule):\r\n  value.value\r\n\r\ndefine function ToString(value FHIR.AssertionDirectionType):\r\n  value.value\r\n\r\ndefine function ToString(value FHIR.CarePlanIntent):\r\n  value.value\r\n\r\ndefine function ToString(value FHIR.SlicingRules):\r\n  value.value\r\n\r\ndefine function ToString(value FHIR.ExplanationOfBenefitStatus):\r\n  value.value\r\n\r\ndefine function ToString(value FHIR.ConsentState):\r\n  value.value\r\n\r\ndefine function ToString(value FHIR.AdverseEventCategory):\r\n  value.value\r\n\r\ndefine function ToString(value FHIR.LinkType):\r\n  value.value\r\n\r\ndefine function ToString(value FHIR.AllergyIntoleranceCriticality):\r\n  value.value\r\n\r\ndefine function ToString(value FHIR.MedicationRequestPriority):\r\n  value.value\r\n\r\ndefine function ToString(value FHIR.ConceptMapEquivalence):\r\n  value.value\r\n\r\ndefine function ToString(value FHIR.FHIRAllTypes):\r\n  value.value\r\n\r\ndefine function ToString(value FHIR.PropertyRepresentation):\r\n  value.value\r\n\r\ndefine function ToString(value FHIR.AuditEventAction):\r\n  value.value\r\n\r\ndefine function ToString(value FHIR.TriggerType):\r\n  value.value\r\n\r\ndefine function ToString(value FHIR.SearchModifierCode):\r\n  value.value\r\n\r\ndefine function ToString(value FHIR.CompositionStatus):\r\n  value.value\r\n\r\ndefine function ToString(value FHIR.AppointmentStatus):\r\n  value.value\r\n\r\ndefine function ToString(value FHIR.MessageSignificanceCategory):\r\n  value.value\r\n\r\ndefine function ToString(value FHIR.EventStatus):\r\n  value.value\r\n\r\ndefine function ToString(value FHIR.OperationParameterUse):\r\n  value.value\r\n\r\ndefine function ToString(value FHIR.ListMode):\r\n  value.value\r\n\r\ndefine function ToString(value FHIR.ActionConditionKind):\r\n  value.value\r\n\r\ndefine function ToString(value FHIR.ObservationStatus):\r\n  value.value\r\n\r\ndefine function ToString(value FHIR.qualityType):\r\n  value.value\r\n\r\ndefine function ToString(value FHIR.AdministrativeGender):\r\n  value.value\r\n\r\ndefine function ToString(value FHIR.ResourceType):\r\n  value.value\r\n\r\ndefine function ToString(value FHIR.QuestionnaireItemType):\r\n  value.value\r\n\r\ndefine function ToBoolean(value FHIR.boolean):\r\n  value.value\r\n\r\ndefine function ToString(value FHIR.StructureMapGroupTypeMode):\r\n  value.value\r\n\r\ndefine function ToString(value FHIR.DeviceMetricCalibrationType):\r\n  value.value\r\n\r\ndefine function ToString(value FHIR.code):\r\n  value.value\r\n\r\ndefine function ToString(value FHIR.SupplyRequestStatus):\r\n  value.value\r\n\r\ndefine function ToString(value FHIR.ActionSelectionBehavior):\r\n  value.value\r\n\r\ndefine function ToString(value FHIR.EncounterLocationStatus):\r\n  value.value\r\n\r\ndefine function ToString(value FHIR.SupplyDeliveryStatus):\r\n  value.value\r\n\r\ndefine function ToString(value FHIR.DiagnosticReportStatus):\r\n  value.value\r\n\r\ndefine function ToString(value FHIR.FlagStatus):\r\n  value.value\r\n\r\ndefine function ToString(value FHIR.CarePlanStatus):\r\n  value.value\r\n\r\ndefine function ToString(value FHIR.ConditionClinicalStatusCodes):\r\n  value.value\r\n\r\ndefine function ToString(value FHIR.ListStatus):\r\n  value.value\r\n\r\ndefine function Tobase64Binary(value FHIR.base64Binary):\r\n  value.value\r\n\r\ndefine function ToString(value FHIR.DeviceUseStatementStatus):\r\n  value.value\r\n\r\ndefine function ToString(value FHIR.AuditEventAgentNetworkType):\r\n  value.value\r\n\r\ndefine function ToString(value FHIR.AddressUse):\r\n  value.value\r\n\r\ndefine function ToString(value FHIR.ConditionalDeleteStatus):\r\n  value.value\r\n\r\ndefine function ToString(value FHIR.ContactPointUse):\r\n  value.value\r\n\r\ndefine function ToString(value FHIR.DeviceMetricOperationalStatus):\r\n  value.value\r\n\r\ndefine function ToString(value FHIR.NutritionOrderStatus):\r\n  value.value\r\n\r\ndefine function ToString(value FHIR.uri):\r\n  value.value\r\n\r\ndefine function ToString(value FHIR.ContributorType):\r\n  value.value\r\n\r\ndefine function ToString(value FHIR.ReferenceVersionRules):\r\n  value.value\r\n\r\ndefine function ToString(value FHIR.Use):\r\n  value.value\r\n\r\ndefine function ToString(value FHIR.IdentityAssuranceLevel):\r\n  value.value\r\n\r\ndefine function ToString(value FHIR.MeasureReportStatus):\r\n  value.value\r\n\r\ndefine function ToString(value FHIR.DeviceMetricColor):\r\n  value.value\r\n\r\ndefine function ToString(value FHIR.SearchEntryMode):\r\n  value.value\r\n\r\ndefine function ToTime(value FHIR.time):\r\n  value.value\r\n\r\ndefine function ToString(value FHIR.ConditionalReadStatus):\r\n  value.value\r\n\r\ndefine function ToString(value FHIR.ConditionVerificationStatus):\r\n  value.value\r\n\r\ndefine function ToString(value FHIR.AllergyIntoleranceSeverity):\r\n  value.value\r\n\r\ndefine function ToString(value FHIR.FinancialResourceStatusCodes):\r\n  value.value\r\n\r\ndefine function ToString(value FHIR.OperationKind):\r\n  value.value\r\n\r\ndefine function ToString(value FHIR.ObservationRelationshipType):\r\n  value.value\r\n\r\ndefine function ToInteger(value FHIR.unsignedInt):\r\n  value.value\r\n\r\ndefine function ToString(value FHIR.NameUse):\r\n  value.value\r\n\r\ndefine function ToString(value FHIR.SubscriptionStatus):\r\n  value.value\r\n\r\ndefine function ToString(value FHIR.DocumentReferenceStatus):\r\n  value.value\r\n\r\ndefine function ToString(value FHIR.LocationMode):\r\n  value.value\r\n\r\ndefine function ToInteger(value FHIR.integer):\r\n  value.value\r\n\r\ndefine function ToString(value FHIR.repositoryType):\r\n  value.value\r\n\r\ndefine function ToString(value FHIR.LocationStatus):\r\n  value.value\r\n\r\ndefine function ToString(value FHIR.FHIRSubstanceStatus):\r\n  value.value\r\n\r\ndefine function ToString(value FHIR.UnknownContentCode):\r\n  value.value\r\n\r\ndefine function ToString(value FHIR.NoteType):\r\n  value.value\r\n\r\ndefine function ToString(value FHIR.TestReportStatus):\r\n  value.value\r\n\r\ndefine function ToString(value FHIR.HTTPVerb):\r\n  value.value\r\n\r\ndefine function ToString(value FHIR.CodeSystemContentMode):\r\n  value.value\r\n\r\ndefine function ToString(value FHIR.EpisodeOfCareStatus):\r\n  value.value\r\n\r\ndefine function ToString(value FHIR.RemittanceOutcome):\r\n  value.value\r\n\r\ndefine function ToString(value FHIR.FHIRDeviceStatus):\r\n  value.value\r\n\r\ndefine function ToString(value FHIR.ContactPointSystem):\r\n  value.value\r\n\r\ndefine function ToString(value FHIR.SlotStatus):\r\n  value.value\r\n\r\ndefine function ToString(value FHIR.PropertyType):\r\n  value.value\r\n\r\ndefine function ToString(value FHIR.markdown):\r\n  value.value\r\n\r\ndefine function ToString(value FHIR.TypeDerivationRule):\r\n  value.value\r\n\r\ndefine function ToString(value FHIR.MedicationStatementStatus):\r\n  value.value\r\n\r\ndefine function ToString(value FHIR.GuidanceResponseStatus):\r\n  value.value\r\n\r\ndefine function ToString(value FHIR.QuantityComparator):\r\n  value.value\r\n\r\ndefine function ToString(value FHIR.RelatedArtifactType):\r\n  value.value\r\n\r\ndefine function ToString(value FHIR.oid):\r\n  value.value\r\n\r\ndefine function ToString(value FHIR.MeasureReportType):\r\n  value.value\r\n\r\ndefine function ToString(value FHIR.ActionPrecheckBehavior):\r\n  value.value\r\n\r\ndefine function ToString(value FHIR.SampledDataDataType):\r\n  value.value\r\n\r\ndefine function ToString(value FHIR.MedicationStatementTaken):\r\n  value.value\r\n\r\ndefine function ToString(value FHIR.CompartmentType):\r\n  value.value\r\n\r\ndefine function ToString(value FHIR.CompositionAttestationMode):\r\n  value.value\r\n\r\ndefine function ToString(value FHIR.DeviceMetricCalibrationState):\r\n  value.value\r\n\r\ndefine function ToString(value FHIR.GroupType):\r\n  value.value\r\n\r\ndefine function ToString(value FHIR.TypeRestfulInteraction):\r\n  value.value\r\n\r\ndefine function ToString(value FHIR.CodeSystemHierarchyMeaning):\r\n  value.value\r\n\r\ndefine function ToString(value FHIR.VisionBase):\r\n  value.value\r\n\r\ndefine function ToString(value FHIR.BundleType):\r\n  value.value\r\n\r\ndefine function ToString(value FHIR.SystemVersionProcessingMode):\r\n  value.value</code></pre>\r\n                    \r\n                    \r\n                </td>\r\n            </tr>\r\n        \r\n        \r\n            \r\n            \r\n        \r\n    </table>\r\n</div>"
        },
        "url": "http://hl7.org/fhir/us/cqfmeasures/Library/library-fhir-helpers",
        "identifier": [
          {
            "use": "official",
            "system": "http://example.org/fhir/cqi/ecqm/Library/Identifier",
            "value": "FHIRHelpers"
          }
        ],
        "version": "3.0.0",
        "name": "FHIRHelpers",
        "title": "FHIR Helpers",
        "status": "active",
        "experimental": true,
        "type": {
          "coding": [
            {
              "system": "http://hl7.org/fhir/library-type",
              "code": "logic-library"
            }
          ]
        },
        "date": "2019-09-03",
        "publisher": "Health Level 7 International - Clinical Quality Information Work Group",
        "description": "This library is used as an example in the FHIR Quality Measure Implementation Guide",
        "approvalDate": "2019-08-03",
        "lastReviewDate": "2019-08-03",
        "contact": [
          {
            "telecom": [
              {
                "system": "url",
                "value": "http://www.hl7.org/Special/committees/cqi/index.cfm"
              }
            ]
          }
        ],
        "relatedArtifact": [
          {
            "type": "depends-on",
            "resource": {
              "reference": "Library/library-fhir-model-definition"
            }
          }
        ],
        "content": [
          {
            "contentType": "text/cql",
            "data": ""
          },
          {
            "contentType": "application/elm+xml",
            "data": ""
          }
        ]
      },
      "request": {
        "method": "PUT",
        "url": "Library/library-fhir-helpers"
      }
    },
    {
      "resource": {
        "resourceType": "Library",
        "id": "library-adult-outpatient-encounters-FHIR",
        "meta": {
          "versionId": "3",
          "lastUpdated": "2019-03-12T02:14:29.762-06:00",
          "profile": [
            "http://hl7.org/fhir/us/cqfmeasures/StructureDefinition/library-cqfm"
          ]
        },
        "text": {
          "status": "generated",
          "div": "<div xmlns=\"http://www.w3.org/1999/xhtml\"><table class=\"grid dict\"><tr><th scope=\"row\"><b>Id: </b></th><td style=\"padding-left: 25px; padding-right: 25px;\">Library/library-adult-outpatient-encounters-FHIR</td></tr><tr><th scope=\"row\"><b>Type: </b></th><td style=\"padding-right: 25px;\"><span><span><span style=\"padding-left: 25px;\"><b>system: </b><span>http://hl7.org/fhir/library-type</span><br/></span><span style=\"padding-left: 25px;\"><b>code: </b><span>logic-library</span></span></span></span></td></tr><tr style=\"vertical-align: top;\"><th rowspan=\"1\" scope=\"row\"><b>Identifier: </b></th><td style=\"padding-left: 25px; padding-right: 25px;\"><b>system: </b><span>http://example.org/fhir/cqi/ecqm/Library/Identifier</span><br/><b>value: </b><span>AdultOutpatientEncounters_FHIR</span></td></tr><tr><th scope=\"row\"><b>Version: </b></th><td style=\"padding-left: 25px; padding-right: 25px;\">1.1.000</td></tr><tr><th scope=\"row\"><b>Title: </b></th><td style=\"padding-left: 25px; padding-right: 25px;\">Adult Outpatient Encounters Common Library</td></tr><tr><th scope=\"row\"><b>Status: </b></th><td style=\"padding-left: 25px; padding-right: 25px;\">active</td></tr><tr><th scope=\"row\"><b>Description: </b></th><td style=\"padding-left: 25px; padding-right: 25px;\">This library is used as an example in the FHIR Quality Measure Implementation Guide</td></tr><tr style=\"vertical-align: top;\"><th rowspan=\"1\" scope=\"row\"><b>Related: </b></th><td style=\"padding-left: 25px; padding-right: 25px;\"><p style=\"margin-bottom: 5px;\"><b>type: </b><span>depends-on</span></p><p style=\"margin-bottom: 5px;\"><b>Resource: </b><br/><span><span style=\"padding-left: 25px;\"><b>reference: </b><span>Library/library-fhir-helpers</span></span></span></p></td></tr><tr style=\"vertical-align: top;\"><th rowspan=\"5\" scope=\"row\"><b>Data Requirements: </b></th><td style=\"padding-left: 25px; padding-right: 25px;\"><div xmlns=\"http://www.w3.org/1999/xhtml\"><p style=\"margin-bottom: 5px;\"><b>type: </b><span>Encounter</span></p><p style=\"margin-bottom: 5px;\"><b>code filter:</b><br/><span style=\"padding-left: 25px;\"><b>path: </b><span>type</span></span><br/><span style=\"padding-left: 25px;\"><b>valueset: </b><span>http://cts.nlm.nih.gov/fhir/ValueSet/2.16.840.1.113883.3.464.1003.101.12.1001</span></span></p></div></td></tr><tr style=\"vertical-align: top;\"><td style=\"padding-left: 25px; padding-right: 25px;\"><div xmlns=\"http://www.w3.org/1999/xhtml\"><p style=\"margin-bottom: 5px;\"><b>type: </b><span>Encounter</span></p><p style=\"margin-bottom: 5px;\"><b>code filter:</b><br/><span style=\"padding-left: 25px;\"><b>path: </b><span>type</span></span><br/><span style=\"padding-left: 25px;\"><b>valueset: </b><span>http://cts.nlm.nih.gov/fhir/ValueSet/2.16.840.1.113883.3.526.3.1240</span></span></p></div></td></tr><tr style=\"vertical-align: top;\"><td style=\"padding-left: 25px; padding-right: 25px;\"><div xmlns=\"http://www.w3.org/1999/xhtml\"><p style=\"margin-bottom: 5px;\"><b>type: </b><span>Encounter</span></p><p style=\"margin-bottom: 5px;\"><b>code filter:</b><br/><span style=\"padding-left: 25px;\"><b>path: </b><span>type</span></span><br/><span style=\"padding-left: 25px;\"><b>valueset: </b><span>http://cts.nlm.nih.gov/fhir/ValueSet/2.16.840.1.113883.3.464.1003.101.12.1025</span></span></p></div></td></tr><tr style=\"vertical-align: top;\"><td style=\"padding-left: 25px; padding-right: 25px;\"><div xmlns=\"http://www.w3.org/1999/xhtml\"><p style=\"margin-bottom: 5px;\"><b>type: </b><span>Encounter</span></p><p style=\"margin-bottom: 5px;\"><b>code filter:</b><br/><span style=\"padding-left: 25px;\"><b>path: </b><span>type</span></span><br/><span style=\"padding-left: 25px;\"><b>valueset: </b><span>http://cts.nlm.nih.gov/fhir/ValueSet/2.16.840.1.113883.3.464.1003.101.12.1023</span></span></p></div></td></tr><tr style=\"vertical-align: top;\"><td style=\"padding-left: 25px; padding-right: 25px;\"><div xmlns=\"http://www.w3.org/1999/xhtml\"><p style=\"margin-bottom: 5px;\"><b>type: </b><span>Encounter</span></p><p style=\"margin-bottom: 5px;\"><b>code filter:</b><br/><span style=\"padding-left: 25px;\"><b>path: </b><span>type</span></span><br/><span style=\"padding-left: 25px;\"><b>valueset: </b><span>http://cts.nlm.nih.gov/fhir/ValueSet/2.16.840.1.113883.3.464.1003.101.12.1016</span></span></p></div></td></tr>    <!-- Filter down to human readable content --><tr style=\"vertical-align: top;\"><th scope=\"row\"><b>Content: </b></th><td style=\"padding-left: 25px; padding-right: 25px;\"><b>type: </b><span>text/cql</span></td></tr><tr><td colspan=\"2\" style=\"padding-left: 25px; padding-right: 25px;\"><pre><code class=\"language-cql\">library AdultOutpatientEncounters_FHIR version '1.1.000'\r\n\r\n/*\r\nThis example is a work in progress and should not be considered a final specification\r\nor recommendation for guidance. This example will help guide and direct the process\r\nof finding conventions and usage patterns that meet the needs of the various stakeholders\r\nin the measure development community.\r\n*/\r\n\r\nusing FHIR version '3.0.0'\r\n\r\ninclude FHIRHelpers version '3.0.0' called FHIRHelpers\r\n\r\nvalueset \"Office Visit\": 'http://cts.nlm.nih.gov/fhir/ValueSet/2.16.840.1.113883.3.464.1003.101.12.1001'\r\nvalueset \"Annual Wellness Visit\": 'http://cts.nlm.nih.gov/fhir/ValueSet/2.16.840.1.113883.3.526.3.1240'\r\nvalueset \"Preventive Care Services - Established Office Visit, 18 and Up\": 'http://cts.nlm.nih.gov/fhir/ValueSet/2.16.840.1.113883.3.464.1003.101.12.1025'\r\nvalueset \"Preventive Care Services-Initial Office Visit, 18 and Up\": 'http://cts.nlm.nih.gov/fhir/ValueSet/2.16.840.1.113883.3.464.1003.101.12.1023'\r\nvalueset \"Home Healthcare Services\": 'http://cts.nlm.nih.gov/fhir/ValueSet/2.16.840.1.113883.3.464.1003.101.12.1016'\r\n\r\ncontext Patient\r\n\r\ndefine function \"Qualifying Encounters\"(MeasurementPeriod Interval&lt;DateTime&gt;):\r\n  ( [Encounter: \"Office Visit\"]\r\n    union [Encounter: \"Annual Wellness Visit\"]\r\n    union [Encounter: \"Preventive Care Services - Established Office Visit, 18 and Up\"]\r\n    union [Encounter: \"Preventive Care Services-Initial Office Visit, 18 and Up\"]\r\n    union [Encounter: \"Home Healthcare Services\"] ) ValidEncounter\r\n    where ValidEncounter.period during day of MeasurementPeriod\r\n      and ValidEncounter.status = 'finished'</code></pre>\r\n                    \r\n                    \r\n                </td>\r\n            </tr>\r\n        \r\n        \r\n            \r\n            \r\n        \r\n    </table>\r\n</div>"
        },
        "url": "http://hl7.org/fhir/us/cqfmeasures/Library/library-adult-outpatient-encounters-FHIR",
        "identifier": [
          {
            "use": "official",
            "system": "http://example.org/fhir/cqi/ecqm/Library/Identifier",
            "value": "AdultOutpatientEncounters_FHIR3"
          }
        ],
        "version": "1.1.000",
        "name": "AdultOutpatientEncounters_FHIR3",
        "title": "Adult Outpatient Encounters Common Library",
        "status": "active",
        "experimental": true,
        "type": {
          "coding": [
            {
              "system": "http://hl7.org/fhir/library-type",
              "code": "logic-library"
            }
          ]
        },
        "date": "2019-09-03",
        "publisher": "Health Level 7 International - Clinical Quality Information Work Group",
        "description": "This library is used as an example in the FHIR Quality Measure Implementation Guide",
        "approvalDate": "2019-08-03",
        "lastReviewDate": "2019-08-03",
        "contact": [
          {
            "telecom": [
              {
                "system": "url",
                "value": "http://www.hl7.org/Special/committees/cqi/index.cfm"
              }
            ]
          }
        ],
        "relatedArtifact": [
          {
            "type": "depends-on",
            "resource": {
              "reference": "Library/library-fhir-model-definition"
            }
          },
          {
            "type": "depends-on",
            "resource": {
              "reference": "Library/library-fhir-helpers"
            }
          }
        ],
        "dataRequirement": [
          {
            "type": "Encounter",
            "codeFilter": [
              {
                "path": "type",
                "valueSetString": "http://cts.nlm.nih.gov/fhir/ValueSet/2.16.840.1.113883.3.464.1003.101.12.1001"
              }
            ]
          },
          {
            "type": "Encounter",
            "codeFilter": [
              {
                "path": "type",
                "valueSetString": "http://cts.nlm.nih.gov/fhir/ValueSet/2.16.840.1.113883.3.526.3.1240"
              }
            ]
          },
          {
            "type": "Encounter",
            "codeFilter": [
              {
                "path": "type",
                "valueSetString": "http://cts.nlm.nih.gov/fhir/ValueSet/2.16.840.1.113883.3.464.1003.101.12.1025"
              }
            ]
          },
          {
            "type": "Encounter",
            "codeFilter": [
              {
                "path": "type",
                "valueSetString": "http://cts.nlm.nih.gov/fhir/ValueSet/2.16.840.1.113883.3.464.1003.101.12.1023"
              }
            ]
          },
          {
            "type": "Encounter",
            "codeFilter": [
              {
                "path": "type",
                "valueSetString": "http://cts.nlm.nih.gov/fhir/ValueSet/2.16.840.1.113883.3.464.1003.101.12.1016"
              }
            ]
          }
        ],
        "content": [
          {
            "contentType": "text/cql",
            "data": ""
          },
          {
            "contentType": "application/elm+xml",
            "data": ""
          }
        ]
      },
      "request": {
        "method": "PUT",
        "url": "Library/library-adult-outpatient-encounters-FHIR"
      }
    },
    {
      "resource": {
        "resourceType": "Library",
        "id": "library-mat-global-common-functions-FHIR",
        "meta": {
          "versionId": "3",
          "lastUpdated": "2019-03-12T02:15:30.109-06:00",
          "profile": [
            "http://hl7.org/fhir/us/cqfmeasures/StructureDefinition/library-cqfm"
          ]
        },
        "text": {
          "status": "generated",
          "div": "<div xmlns=\"http://www.w3.org/1999/xhtml\"><table class=\"grid dict\"><tr><th scope=\"row\"><b>Id: </b></th><td style=\"padding-left: 25px; padding-right: 25px;\">Library/library-mat-global-common-functions-FHIR</td></tr><tr><th scope=\"row\"><b>Type: </b></th><td style=\"padding-right: 25px;\"><span><span><span style=\"padding-left: 25px;\"><b>system: </b><span>http://hl7.org/fhir/library-type</span><br/></span><span style=\"padding-left: 25px;\"><b>code: </b><span>logic-library</span></span></span></span></td></tr><tr style=\"vertical-align: top;\"><th rowspan=\"1\" scope=\"row\"><b>Identifier: </b></th><td style=\"padding-left: 25px; padding-right: 25px;\"><b>system: </b><span>http://example.org/fhir/cqi/ecqm/Library/Identifier</span><br/><b>value: </b><span>MATGlobalCommonFunctions_FHIR</span></td></tr><tr><th scope=\"row\"><b>Version: </b></th><td style=\"padding-left: 25px; padding-right: 25px;\">2.0.000</td></tr><tr><th scope=\"row\"><b>Title: </b></th><td style=\"padding-left: 25px; padding-right: 25px;\">MAT Global Common Functions FHIR</td></tr><tr><th scope=\"row\"><b>Status: </b></th><td style=\"padding-left: 25px; padding-right: 25px;\">active</td></tr><tr><th scope=\"row\"><b>Description: </b></th><td style=\"padding-left: 25px; padding-right: 25px;\">This library is used as an example in the FHIR Quality Measure Implementation Guide</td></tr><tr style=\"vertical-align: top;\"><th rowspan=\"1\" scope=\"row\"><b>Related: </b></th><td style=\"padding-left: 25px; padding-right: 25px;\"><p style=\"margin-bottom: 5px;\"><b>type: </b><span>depends-on</span></p><p style=\"margin-bottom: 5px;\"><b>Resource: </b><br/><span><span style=\"padding-left: 25px;\"><b>reference: </b><span>Library/library-fhir-helpers</span></span></span></p></td></tr><tr style=\"vertical-align: top;\"><th rowspan=\"5\" scope=\"row\"><b>Data Requirements: </b></th><td style=\"padding-left: 25px; padding-right: 25px;\"><div xmlns=\"http://www.w3.org/1999/xhtml\"><p style=\"margin-bottom: 5px;\"><b>type: </b><span>Encounter</span></p><p style=\"margin-bottom: 5px;\"><b>code filter:</b><br/><span style=\"padding-left: 25px;\"><b>path: </b><span>type</span></span><br/><span style=\"padding-left: 25px;\"><b>valueset: </b><span>http://cts.nlm.nih.gov/fhir/ValueSet/2.16.840.1.113883.3.666.5.307</span></span></p></div></td></tr><tr style=\"vertical-align: top;\"><td style=\"padding-left: 25px; padding-right: 25px;\"><div xmlns=\"http://www.w3.org/1999/xhtml\"><p style=\"margin-bottom: 5px;\"><b>type: </b><span>Encounter</span></p><p style=\"margin-bottom: 5px;\"><b>code filter:</b><br/><span style=\"padding-left: 25px;\"><b>path: </b><span>type</span></span><br/><span style=\"padding-left: 25px;\"><b>valueset: </b><span>http://cts.nlm.nih.gov/fhir/ValueSet/2.16.840.1.113883.3.117.1.7.1.292</span></span></p></div></td></tr><tr style=\"vertical-align: top;\"><td style=\"padding-left: 25px; padding-right: 25px;\"><div xmlns=\"http://www.w3.org/1999/xhtml\"><p style=\"margin-bottom: 5px;\"><b>type: </b><span>Condition</span></p><p style=\"margin-bottom: 5px;\"><b>code filter:</b><br/><span style=\"padding-left: 25px;\"><b>path: </b><span>id</span></span></p></div></td></tr><tr style=\"vertical-align: top;\"><td style=\"padding-left: 25px; padding-right: 25px;\"><div xmlns=\"http://www.w3.org/1999/xhtml\"><p style=\"margin-bottom: 5px;\"><b>type: </b><span>Condition</span></p><p style=\"margin-bottom: 5px;\"><b>code filter:</b><br/><span style=\"padding-left: 25px;\"><b>path: </b><span>id</span></span></p></div></td></tr><tr style=\"vertical-align: top;\"><td style=\"padding-left: 25px; padding-right: 25px;\"><div xmlns=\"http://www.w3.org/1999/xhtml\"><p style=\"margin-bottom: 5px;\"><b>type: </b><span>Location</span></p><p style=\"margin-bottom: 5px;\"><b>code filter:</b><br/><span style=\"padding-left: 25px;\"><b>path: </b><span>id</span></span></p></div></td></tr>    <!-- Filter down to human readable content --><tr style=\"vertical-align: top;\"><th scope=\"row\"><b>Content: </b></th><td style=\"padding-left: 25px; padding-right: 25px;\"><b>type: </b><span>text/cql</span></td></tr><tr><td colspan=\"2\" style=\"padding-left: 25px; padding-right: 25px;\"><pre><code class=\"language-cql\">library MATGlobalCommonFunctions_FHIR version '2.0.000'\r\n\r\n/*\r\nThis example is a work in progress and should not be considered a final specification\r\nor recommendation for guidance. This example will help guide and direct the process\r\nof finding conventions and usage patterns that meet the needs of the various stakeholders\r\nin the measure development community.\r\n*/\r\n\r\nusing FHIR version '3.0.0'\r\n\r\ninclude FHIRHelpers version '3.0.0' called FHIRHelpers\r\n\r\ncodesystem \"LOINC\": 'http://loinc.org'\r\ncodesystem \"SNOMEDCT\": 'http://snomed.info/sct/731000124108'\r\ncodesystem \"RoleCode\": 'http://hl7.org/fhir/v3/RoleCode'\r\ncodesystem \"Diagnosis Role\": 'http://hl7.org/fhir/diagnosis-role'\r\n\r\nvalueset \"Encounter Inpatient\": 'http://cts.nlm.nih.gov/fhir/ValueSet/2.16.840.1.113883.3.666.5.307'\r\nvalueset \"Emergency Department Visit\": 'http://cts.nlm.nih.gov/fhir/ValueSet/2.16.840.1.113883.3.117.1.7.1.292'\r\n\r\ncode \"Birthdate\": '21112-8' from \"LOINC\" display 'Birth date'\r\ncode \"Dead\": '419099009' from \"SNOMEDCT\" display 'Dead'\r\ncode \"ER\": 'ER' from \"RoleCode\" display 'Emergency room'\r\ncode \"ICU\": 'ICU' from \"RoleCode\" display 'Intensive care unit'\r\ncode \"Billing\": 'billing' from \"Diagnosis Role\" display 'Billing'\r\n\r\nparameter \"Measurement Period\" Interval&lt;DateTime&gt;\r\n\r\ncontext Patient\r\n\r\ndefine \"Inpatient Encounter\":\r\n  [Encounter: \"Encounter Inpatient\"] EncounterInpatient\r\n    where EncounterInpatient.status = 'finished'\r\n      and \"LengthInDays\"(EncounterInpatient.period)&lt;= 120\r\n      and EncounterInpatient.period ends during \"Measurement Period\"\r\n\r\ndefine function \"ToDate\"(Value DateTime):\r\n  DateTime(year from Value, month from Value, day from Value, 0, 0, 0, 0, timezone from Value)\r\n\r\ndefine function \"CalendarAgeInDaysAt\"(BirthDateTime DateTime, AsOf DateTime):\r\n  days between ToDate(BirthDateTime)and ToDate(AsOf)\r\n\r\ndefine function \"CalendarAgeInDays\"(BirthDateTime DateTime):\r\n  CalendarAgeInDaysAt(BirthDateTime, Today())\r\n\r\ndefine function \"CalendarAgeInMonthsAt\"(BirthDateTime DateTime, AsOf DateTime):\r\n  months between ToDate(BirthDateTime)and ToDate(AsOf)\r\n\r\ndefine function \"CalendarAgeInMonths\"(BirthDateTime DateTime):\r\n  CalendarAgeInMonthsAt(BirthDateTime, Today())\r\n\r\ndefine function \"CalendarAgeInYearsAt\"(BirthDateTime DateTime, AsOf DateTime):\r\n  years between ToDate(BirthDateTime)and ToDate(AsOf)\r\n\r\ndefine function \"CalendarAgeInYears\"(BirthDateTime DateTime):\r\n  CalendarAgeInYearsAt(BirthDateTime, Today())\r\n\r\ndefine function \"LengthInDays\"(Value Interval&lt;DateTime&gt;):\r\n  difference in days between start of Value and \r\n  end of Value\r\n\r\ndefine function \"ED Visit\"(TheEncounter FHIR.Encounter):\r\n  singleton from ( [Encounter: \"Emergency Department Visit\"] EDVisit\r\n      where EDVisit.status = 'finished'\r\n        and EDVisit.period ends 1 hour or less on or before start of FHIRHelpers.ToInterval(TheEncounter.period)\r\n  )\r\n\r\ndefine function \"Hospitalization\"(TheEncounter FHIR.Encounter):\r\n  ( \"ED Visit\"(TheEncounter)) X\r\n    return if X is null then TheEncounter.period \r\n      else Interval[start of FHIRHelpers.ToInterval(X.period), \r\n    end of FHIRHelpers.ToInterval(TheEncounter.period)]\r\n\r\ndefine function \"Hospitalization Locations\"(TheEncounter FHIR.Encounter):\r\n  ( \"ED Visit\"(TheEncounter)) EDEncounter\r\n    return if EDEncounter is null then TheEncounter.location \r\n      else flatten { EDEncounter.location, TheEncounter.location }\r\n\r\ndefine function \"Hospitalization Length of Stay\"(TheEncounter FHIR.Encounter):\r\n  LengthInDays(\"Hospitalization\"(TheEncounter))\r\n\r\ndefine function \"Hospital Admission Time\"(TheEncounter FHIR.Encounter):\r\n  start of \"Hospitalization\"(TheEncounter)\r\n\r\ndefine function \"Hospital Discharge Time\"(TheEncounter FHIR.Encounter):\r\n  \r\n  end of FHIRHelpers.ToInterval(TheEncounter.period)\r\n\r\ndefine function \"Hospital Arrival Time\"(TheEncounter FHIR.Encounter):\r\n  start of FHIRHelpers.ToInterval(First((\"Hospitalization Locations\"(TheEncounter))HospitalLocation\r\n        sort by start of FHIRHelpers.ToInterval(period)\r\n    ).period\r\n  )\r\n\r\n// TODO - fix these (must fetch Location resources and compare id to reference)\r\n/*define function \"Hospital Departure Time\"(TheEncounter FHIR.Encounter):\r\n\tend of FHIRHelpers.ToInterval(Last(\r\n\t    ( \"Hospitalization Locations\"(TheEncounter) ) HospitalLocation\r\n\t\t\tsort by start of FHIRHelpers.ToInterval(period)\r\n\t).period)\r\n\r\ndefine function \"Emergency Department Arrival Time\"(TheEncounter FHIR.Encounter):\r\n\tstart of FHIRHelpers.ToInterval((\r\n\t    singleton from (\r\n\t        ( \"Hospitalization Locations\"(TheEncounter) ) HospitalLocation\r\n\t\t\t\twhere HospitalLocation.type ~ \"ER\"\r\n\t\t)\r\n\t).period)\r\n\r\ndefine function \"First Inpatient Intensive Care Unit\"(TheEncounter FHIR.Encounter):\r\n\tFirst(\r\n\t    ( TheEncounter.location ) HospitalLocation\r\n\t\t\twhere HospitalLocation.type ~ \"ICU\"\r\n\t\t\t\tand HospitalLocation.period during TheEncounter.period\r\n\t\t\tsort by start of FHIRHelpers.ToInterval(period)\r\n\t)*/\r\n\r\n\r\n\r\n\r\n/*\r\n*\r\n*    CQFMeasures Common Logic\r\n*\r\n*/\r\n\r\ndefine function \"Normalize Onset\"(onset Choice&lt;FHIR.dateTime, FHIR.Age, FHIR.Period, FHIR.Range, FHIR.string&gt;):\r\n  if onset is FHIR.dateTime then Interval[onset.value, onset.value]\r\n    else if onset is FHIR.Period then FHIRHelpers.ToInterval(onset as FHIR.Period)\r\n    else null\r\n\r\ndefine function \"Get Choice Interval - dateTime or Period\"(performed Choice&lt;FHIR.dateTime, FHIR.Period&gt;):\r\n  if performed is FHIR.dateTime then Interval[performed.value, performed.value]\r\n    else FHIRHelpers.ToInterval(performed as FHIR.Period)\r\n\r\ndefine function \"GetId\"(uri String):\r\n  Last(Split(uri, '/'))\r\n\r\ndefine function \"EncounterDiagnosis\"(Encounter Encounter):\r\n  Encounter.diagnosis D\r\n    return singleton from ( [Condition: id in \"GetId\"(D.condition.reference)] )\r\n\r\n// Returns the condition that is specified as the principal diagnosis for the encounter\r\n\r\ndefine function \"PrincipalDiagnosis\"(Encounter Encounter):\r\n  ( singleton from ( Encounter.diagnosis D\r\n      where D.role ~ ToConcept(\"Billing\")\r\n        and D.rank = 1\r\n  ) ) PD\r\n    return singleton from ( [Condition: id in \"GetId\"(PD.condition.reference)] )\r\n\r\n// Returns the location for the given location reference\r\n\r\ndefine function GetLocation(reference Reference):\r\n  singleton from ( [Location: id in GetId(reference.reference)] )</code></pre>\r\n                    \r\n                    \r\n                </td>\r\n            </tr>\r\n        \r\n        \r\n            \r\n            \r\n        \r\n    </table>\r\n</div>"
        },
        "url": "http://hl7.org/fhir/us/cqfmeasures/Library/library-mat-global-common-functions-FHIR",
        "identifier": [
          {
            "use": "official",
            "system": "http://example.org/fhir/cqi/ecqm/Library/Identifier",
            "value": "MATGlobalCommonFunctions_FHIR3"
          }
        ],
        "version": "2.0.000",
        "name": "MATGlobalCommonFunctions_FHIR3",
        "title": "MAT Global Common Functions FHIR",
        "status": "active",
        "experimental": true,
        "type": {
          "coding": [
            {
              "system": "http://hl7.org/fhir/library-type",
              "code": "logic-library"
            }
          ]
        },
        "date": "2019-09-03",
        "publisher": "Health Level 7 International - Clinical Quality Information Work Group",
        "description": "This library is used as an example in the FHIR Quality Measure Implementation Guide",
        "approvalDate": "2019-08-03",
        "lastReviewDate": "2019-08-03",
        "contact": [
          {
            "telecom": [
              {
                "system": "url",
                "value": "http://www.hl7.org/Special/committees/cqi/index.cfm"
              }
            ]
          }
        ],
        "relatedArtifact": [
          {
            "type": "depends-on",
            "resource": {
              "reference": "Library/library-fhir-model-definition"
            }
          },
          {
            "type": "depends-on",
            "resource": {
              "reference": "Library/library-fhir-helpers"
            }
          }
        ],
        "dataRequirement": [
          {
            "type": "Encounter",
            "codeFilter": [
              {
                "path": "type",
                "valueSetString": "http://cts.nlm.nih.gov/fhir/ValueSet/2.16.840.1.113883.3.666.5.307"
              }
            ]
          },
          {
            "type": "Encounter",
            "codeFilter": [
              {
                "path": "type",
                "valueSetString": "http://cts.nlm.nih.gov/fhir/ValueSet/2.16.840.1.113883.3.117.1.7.1.292"
              }
            ]
          },
          {
            "type": "Condition",
            "codeFilter": [
              {
                "path": "id"
              }
            ]
          },
          {
            "type": "Condition",
            "codeFilter": [
              {
                "path": "id"
              }
            ]
          },
          {
            "type": "Location",
            "codeFilter": [
              {
                "path": "id"
              }
            ]
          }
        ],
        "content": [
          {
            "contentType": "text/cql",
            "data": ""
          },
          {
            "contentType": "application/elm+xml",
            "data": ""
          }
        ]
      },
      "request": {
        "method": "PUT",
        "url": "Library/library-mat-global-common-functions-FHIR"
      }
    },
    {
      "resource": {
        "resourceType": "Library",
        "id": "library-hospice-FHIR",
        "meta": {
          "versionId": "3",
          "lastUpdated": "2019-03-12T02:15:26.111-06:00",
          "profile": [
            "http://hl7.org/fhir/us/cqfmeasures/StructureDefinition/library-cqfm"
          ]
        },
        "text": {
          "status": "generated",
          "div": "<div xmlns=\"http://www.w3.org/1999/xhtml\"><table class=\"grid dict\"><tr><th scope=\"row\"><b>Id: </b></th><td style=\"padding-left: 25px; padding-right: 25px;\">Library/library-hospice-FHIR</td></tr><tr><th scope=\"row\"><b>Type: </b></th><td style=\"padding-right: 25px;\"><span><span><span style=\"padding-left: 25px;\"><b>system: </b><span>http://hl7.org/fhir/library-type</span><br/></span><span style=\"padding-left: 25px;\"><b>code: </b><span>logic-library</span></span></span></span></td></tr><tr style=\"vertical-align: top;\"><th rowspan=\"1\" scope=\"row\"><b>Identifier: </b></th><td style=\"padding-left: 25px; padding-right: 25px;\"><b>system: </b><span>http://example.org/fhir/cqi/ecqm/Library/Identifier</span><br/><b>value: </b><span>Hospice_FHIR</span></td></tr><tr><th scope=\"row\"><b>Version: </b></th><td style=\"padding-left: 25px; padding-right: 25px;\">1.0.000</td></tr><tr><th scope=\"row\"><b>Title: </b></th><td style=\"padding-left: 25px; padding-right: 25px;\">Hospice FHIR</td></tr><tr><th scope=\"row\"><b>Status: </b></th><td style=\"padding-left: 25px; padding-right: 25px;\">active</td></tr><tr><th scope=\"row\"><b>Description: </b></th><td style=\"padding-left: 25px; padding-right: 25px;\">This library is used as an example in the FHIR Quality Measure Implementation Guide</td></tr><tr style=\"vertical-align: top;\"><th rowspan=\"2\" scope=\"row\"><b>Related: </b></th><td style=\"padding-left: 25px; padding-right: 25px;\"><p style=\"margin-bottom: 5px;\"><b>type: </b><span>depends-on</span></p><p style=\"margin-bottom: 5px;\"><b>Resource: </b><br/><span><span style=\"padding-left: 25px;\"><b>reference: </b><span>Library/library-mat-global-common-functions-FHIR</span></span></span></p></td></tr><tr style=\"vertical-align: top;\"><td style=\"padding-left: 25px; padding-right: 25px;\"><p style=\"margin-bottom: 5px;\"><b>type: </b><span>depends-on</span></p><p style=\"margin-bottom: 5px;\"><b>Resource: </b><br/><span><span style=\"padding-left: 25px;\"><b>reference: </b><span>Library/library-fhir-helpers</span></span></span></p></td></tr><tr style=\"vertical-align: top;\"><th rowspan=\"3\" scope=\"row\"><b>Data Requirements: </b></th><td style=\"padding-left: 25px; padding-right: 25px;\"><div xmlns=\"http://www.w3.org/1999/xhtml\"><p style=\"margin-bottom: 5px;\"><b>type: </b><span>Encounter</span></p><p style=\"margin-bottom: 5px;\"><b>code filter:</b><br/><span style=\"padding-left: 25px;\"><b>path: </b><span>type</span></span><br/><span style=\"padding-left: 25px;\"><b>valueset: </b><span>http://cts.nlm.nih.gov/fhir/ValueSet/2.16.840.1.113883.3.666.5.307</span></span></p></div></td></tr><tr style=\"vertical-align: top;\"><td style=\"padding-left: 25px; padding-right: 25px;\"><div xmlns=\"http://www.w3.org/1999/xhtml\"><p style=\"margin-bottom: 5px;\"><b>type: </b><span>ProcedureRequest</span></p><p style=\"margin-bottom: 5px;\"><b>code filter:</b><br/><span style=\"padding-left: 25px;\"><b>path: </b><span>code</span></span><br/><span style=\"padding-left: 25px;\"><b>valueset: </b><span>http://cts.nlm.nih.gov/fhir/ValueSet/2.16.840.1.113762.1.4.1108.15</span></span></p></div></td></tr><tr style=\"vertical-align: top;\"><td style=\"padding-left: 25px; padding-right: 25px;\"><div xmlns=\"http://www.w3.org/1999/xhtml\"><p style=\"margin-bottom: 5px;\"><b>type: </b><span>Procedure</span></p><p style=\"margin-bottom: 5px;\"><b>code filter:</b><br/><span style=\"padding-left: 25px;\"><b>path: </b><span>code</span></span><br/><span style=\"padding-left: 25px;\"><b>valueset: </b><span>http://cts.nlm.nih.gov/fhir/ValueSet/2.16.840.1.113762.1.4.1108.15</span></span></p></div></td></tr>    <!-- Filter down to human readable content --><tr style=\"vertical-align: top;\"><th scope=\"row\"><b>Content: </b></th><td style=\"padding-left: 25px; padding-right: 25px;\"><b>type: </b><span>text/cql</span></td></tr><tr><td colspan=\"2\" style=\"padding-left: 25px; padding-right: 25px;\"><pre><code class=\"language-cql\">library Hospice_FHIR version '1.0.000'\r\n\r\n/*\r\nThis example is a work in progress and should not be considered a final specification\r\nor recommendation for guidance. This example will help guide and direct the process\r\nof finding conventions and usage patterns that meet the needs of the various stakeholders\r\nin the measure development community.\r\n*/\r\n\r\nusing FHIR version '3.0.0'\r\n\r\ninclude MATGlobalCommonFunctions_FHIR version '2.0.000' called Global\r\ninclude FHIRHelpers version '3.0.0' called FHIRHelpers\r\n\r\ncodesystem \"SNOMEDCT:2017-09\": 'http://snomed.info/sct/731000124108' version 'http://snomed.info/sct/731000124108/version/201709'\r\n\r\nvalueset \"Encounter Inpatient\": 'http://cts.nlm.nih.gov/fhir/ValueSet/2.16.840.1.113883.3.666.5.307'\r\nvalueset \"Hospice care ambulatory\": 'http://cts.nlm.nih.gov/fhir/ValueSet/2.16.840.1.113762.1.4.1108.15'\r\n\r\ncode \"Discharge to healthcare facility for hospice care (procedure)\": '428371000124100' from \"SNOMEDCT:2017-09\" display 'Discharge to healthcare facility for hospice care (procedure)'\r\ncode \"Discharge to home for hospice care (procedure)\": '428361000124107' from \"SNOMEDCT:2017-09\" display 'Discharge to home for hospice care (procedure)'\r\n\r\ncontext Patient\r\n\r\ndefine function \"Has Hospice\"(MeasurementPeriod Interval&lt;DateTime&gt;):\r\n  exists ( [Encounter: \"Encounter Inpatient\"] DischargeHospice\r\n      where DischargeHospice.status = 'final'\r\n        and ( FHIRHelpers.ToConcept(DischargeHospice.hospitalization.dischargeDisposition).codes[0]~ \"Discharge to home for hospice care (procedure)\"\r\n            or FHIRHelpers.ToConcept(DischargeHospice.hospitalization.dischargeDisposition).codes[0]~ \"Discharge to healthcare facility for hospice care (procedure)\"\r\n        )\r\n        and DischargeHospice.period ends during day of MeasurementPeriod\r\n  )\r\n    or exists ( [ProcedureRequest: \"Hospice care ambulatory\"] HospiceOrder\r\n        where HospiceOrder.intent = 'order'\r\n          and HospiceOrder.authoredOn in day of MeasurementPeriod\r\n    )\r\n    or exists ( [Procedure: \"Hospice care ambulatory\"] HospicePerformed\r\n        where HospicePerformed.status = 'completed'\r\n          and Global.\"Get Choice Interval - dateTime or Period\"(HospicePerformed.performed)overlaps MeasurementPeriod\r\n    )</code></pre>\r\n                    \r\n                    \r\n                </td>\r\n            </tr>\r\n        \r\n        \r\n            \r\n            \r\n        \r\n    </table>\r\n</div>"
        },
        "url": "http://hl7.org/fhir/us/cqfmeasures/Library/library-hospice-FHIR",
        "identifier": [
          {
            "use": "official",
            "system": "http://example.org/fhir/cqi/ecqm/Library/Identifier",
            "value": "Hospice_FHIR3"
          }
        ],
        "version": "1.0.000",
        "name": "Hospice_FHIR3",
        "title": "Hospice FHIR",
        "status": "active",
        "experimental": true,
        "type": {
          "coding": [
            {
              "system": "http://hl7.org/fhir/library-type",
              "code": "logic-library"
            }
          ]
        },
        "date": "2019-09-03",
        "publisher": "Health Level 7 International - Clinical Quality Information Work Group",
        "description": "This library is used as an example in the FHIR Quality Measure Implementation Guide",
        "approvalDate": "2019-08-03",
        "lastReviewDate": "2019-08-03",
        "contact": [
          {
            "telecom": [
              {
                "system": "url",
                "value": "http://www.hl7.org/Special/committees/cqi/index.cfm"
              }
            ]
          }
        ],
        "relatedArtifact": [
          {
            "type": "depends-on",
            "resource": {
              "reference": "Library/library-fhir-model-definition"
            }
          },
          {
            "type": "depends-on",
            "resource": {
              "reference": "Library/library-mat-global-common-functions-FHIR"
            }
          },
          {
            "type": "depends-on",
            "resource": {
              "reference": "Library/library-fhir-helpers"
            }
          }
        ],
        "dataRequirement": [
          {
            "type": "Encounter",
            "codeFilter": [
              {
                "path": "type",
                "valueSetString": "http://cts.nlm.nih.gov/fhir/ValueSet/2.16.840.1.113883.3.666.5.307"
              }
            ]
          },
          {
            "type": "ProcedureRequest",
            "codeFilter": [
              {
                "path": "code",
                "valueSetString": "http://cts.nlm.nih.gov/fhir/ValueSet/2.16.840.1.113762.1.4.1108.15"
              }
            ]
          },
          {
            "type": "Procedure",
            "codeFilter": [
              {
                "path": "code",
                "valueSetString": "http://cts.nlm.nih.gov/fhir/ValueSet/2.16.840.1.113762.1.4.1108.15"
              }
            ]
          }
        ],
        "content": [
          {
            "contentType": "text/cql",
            "data": ""
          },
          {
            "contentType": "application/elm+xml",
            "data": ""
          }
        ]
      },
      "request": {
        "method": "PUT",
        "url": "Library/library-hospice-FHIR"
      }
    },
    {
      "resource": {
        "resourceType": "Library",
        "id": "library-supplemental-data-elements-FHIR",
        "meta": {
          "versionId": "3",
          "lastUpdated": "2019-03-12T02:15:43.723-06:00",
          "profile": [
            "http://hl7.org/fhir/us/cqfmeasures/StructureDefinition/library-cqfm"
          ]
        },
        "text": {
          "status": "generated",
          "div": "<div xmlns=\"http://www.w3.org/1999/xhtml\"><table class=\"grid dict\"><tr><th scope=\"row\"><b>Id: </b></th><td style=\"padding-left: 25px; padding-right: 25px;\">Library/library-supplemental-data-elements-FHIR</td></tr><tr><th scope=\"row\"><b>Type: </b></th><td style=\"padding-right: 25px;\"><span><span><span style=\"padding-left: 25px;\"><b>system: </b><span>http://hl7.org/fhir/library-type</span><br/></span><span style=\"padding-left: 25px;\"><b>code: </b><span>logic-library</span></span></span></span></td></tr><tr style=\"vertical-align: top;\"><th rowspan=\"1\" scope=\"row\"><b>Identifier: </b></th><td style=\"padding-left: 25px; padding-right: 25px;\"><b>system: </b><span>http://example.org/fhir/cqi/ecqm/Library/Identifier</span><br/><b>value: </b><span>SupplementalDataElements_FHIR</span></td></tr><tr><th scope=\"row\"><b>Version: </b></th><td style=\"padding-left: 25px; padding-right: 25px;\">1.0.0</td></tr><tr><th scope=\"row\"><b>Title: </b></th><td style=\"padding-left: 25px; padding-right: 25px;\">Supplemental Data Elements FHIR</td></tr><tr><th scope=\"row\"><b>Status: </b></th><td style=\"padding-left: 25px; padding-right: 25px;\">active</td></tr><tr><th scope=\"row\"><b>Description: </b></th><td style=\"padding-left: 25px; padding-right: 25px;\">This library is used as an example in the FHIR Quality Measure Implementation Guide</td></tr><tr style=\"vertical-align: top;\"><th rowspan=\"1\" scope=\"row\"><b>Related: </b></th><td style=\"padding-left: 25px; padding-right: 25px;\"><p style=\"margin-bottom: 5px;\"><b>type: </b><span>depends-on</span></p><p style=\"margin-bottom: 5px;\"><b>Resource: </b><br/><span><span style=\"padding-left: 25px;\"><b>reference: </b><span>Library/library-fhir-helpers</span></span></span></p></td></tr><tr style=\"vertical-align: top;\"><th rowspan=\"1\" scope=\"row\"><b>Data Requirements: </b></th><td style=\"padding-left: 25px; padding-right: 25px;\"><div xmlns=\"http://www.w3.org/1999/xhtml\"><p style=\"margin-bottom: 5px;\"><b>type: </b><span>Coverage</span></p><p style=\"margin-bottom: 5px;\"><b>code filter:</b><br/><span style=\"padding-left: 25px;\"><b>path: </b><span>type</span></span><br/><span style=\"padding-left: 25px;\"><b>valueset: </b><span>http://cts.nlm.nih.gov/fhir/ValueSet/2.16.840.1.114222.4.11.3591</span></span></p></div></td></tr>    <!-- Filter down to human readable content --><tr style=\"vertical-align: top;\"><th scope=\"row\"><b>Content: </b></th><td style=\"padding-left: 25px; padding-right: 25px;\"><b>type: </b><span>text/cql</span></td></tr><tr><td colspan=\"2\" style=\"padding-left: 25px; padding-right: 25px;\"><pre><code class=\"language-cql\">library SupplementalDataElements_FHIR version '1.0.0'\r\n\r\nusing FHIR version '3.0.0'\r\n\r\ninclude FHIRHelpers version '3.0.0' called FHIRHelpers\r\n\r\nvalueset \"ONC Administrative Sex\": 'http://cts.nlm.nih.gov/fhir/ValueSet/2.16.840.1.113762.1.4.1'\r\nvalueset \"Race\": 'http://cts.nlm.nih.gov/fhir/ValueSet/2.16.840.1.114222.4.11.836'\r\nvalueset \"Ethnicity\": 'http://cts.nlm.nih.gov/fhir/ValueSet/2.16.840.1.114222.4.11.837'\r\nvalueset \"Payer\": 'http://cts.nlm.nih.gov/fhir/ValueSet/2.16.840.1.114222.4.11.3591'\r\n\r\ncontext Patient\r\n\r\ndefine \"SDE Ethnicity\":\r\n  ( flatten ( Patient.extension Extension\r\n      where Extension.url = 'http://hl7.org/fhir/us/core/StructureDefinition/us-core-ethnicity'\r\n      return Extension.extension\r\n  ) ) E\r\n    where E.url = 'ombCategory'\r\n      or E.url = 'detailed'\r\n    return E.value as Coding\r\n\r\ndefine \"SDE Payer\":\r\n  [Coverage: type in \"Payer\"] Payer\r\n    return {\r\n      code: Payer.type,\r\n      period: Payer.period\r\n    }\r\n\r\ndefine \"SDE Race\":\r\n  ( flatten ( Patient.extension Extension\r\n      where Extension.url = 'http://hl7.org/fhir/us/core/StructureDefinition/us-core-race'\r\n      return Extension.extension\r\n  ) ) E\r\n    where E.url = 'ombCategory'\r\n      or E.url = 'detailed'\r\n    return E.value as Coding\r\n\r\ndefine \"SDE Sex\":\r\n  case\r\n    when Patient.gender = 'male' then Code { code: 'M', system: 'http://hl7.org/fhir/v3/AdministrativeGender', display: 'Male' }\r\n    when Patient.gender = 'female' then Code { code: 'F', system: 'http://hl7.org/fhir/v3/AdministrativeGender', display: 'Female' } \r\n    else null \r\n  end</code></pre>\r\n                    \r\n                    \r\n                </td>\r\n            </tr>\r\n        \r\n        \r\n            \r\n            \r\n        \r\n    </table>\r\n</div>"
        },
        "url": "http://hl7.org/fhir/us/cqfmeasures/Library/library-supplemental-data-elements-FHIR",
        "identifier": [
          {
            "use": "official",
            "system": "http://example.org/fhir/cqi/ecqm/Library/Identifier",
            "value": "SupplementalDataElements_FHIR3"
          }
        ],
        "version": "1.0.0",
        "name": "SupplementalDataElements_FHIR3",
        "title": "Supplemental Data Elements FHIR",
        "status": "active",
        "experimental": true,
        "type": {
          "coding": [
            {
              "system": "http://hl7.org/fhir/library-type",
              "code": "logic-library"
            }
          ]
        },
        "date": "2019-09-03",
        "publisher": "Health Level 7 International - Clinical Quality Information Work Group",
        "description": "This library is used as an example in the FHIR Quality Measure Implementation Guide",
        "approvalDate": "2019-08-03",
        "lastReviewDate": "2019-08-03",
        "contact": [
          {
            "telecom": [
              {
                "system": "url",
                "value": "http://www.hl7.org/Special/committees/cqi/index.cfm"
              }
            ]
          }
        ],
        "relatedArtifact": [
          {
            "type": "depends-on",
            "resource": {
              "reference": "Library/library-fhir-model-definition"
            }
          },
          {
            "type": "depends-on",
            "resource": {
              "reference": "Library/library-fhir-helpers"
            }
          }
        ],
        "dataRequirement": [
          {
            "type": "Coverage",
            "codeFilter": [
              {
                "path": "type",
                "valueSetString": "http://cts.nlm.nih.gov/fhir/ValueSet/2.16.840.1.114222.4.11.3591"
              }
            ]
          }
        ],
        "content": [
          {
            "contentType": "text/cql",
            "data": ""
          },
          {
            "contentType": "application/elm+xml",
            "data": ""
          }
        ]
      },
      "request": {
        "method": "PUT",
        "url": "Library/library-supplemental-data-elements-FHIR"
      }
    }
  ]
}